Model,MDO3104
Firmware Version,1.30

Waveform Type,RF_FD
Point Format,Y
Horizontal Units,Hz
Horizontal Scale,2.8e+07
,
Sample Interval,373333
Record Length,751
Gating,0.133155792277% to 100.0%
Probe Attenuation,1
Vertical Units,dBm
Vertical Offset,0
Vertical Scale,10
Vertical Position,0
Center Frequency,1.4e+08
Span,2.8e+08
Reference Level,-15
Label,
FREQUENCY,FD NORM
0.000000000e+00,-71.8205
3.733333333e+05,-86.7369
7.466666667e+05,-81.323
1.120000000e+06,-80.9695
1.493333333e+06,-74.8642
1.866666667e+06,-72.2654
2.240000000e+06,-70.5466
2.613333333e+06,-67.0576
2.986666667e+06,-67.0668
3.360000000e+06,-60.9326
3.733333333e+06,-63.6139
4.106666667e+06,-62.7054
4.480000000e+06,-62.5689
4.853333333e+06,-67.4783
5.226666667e+06,-64.7012
5.600000000e+06,-64.7666
5.973333333e+06,-72.9073
6.346666667e+06,-77.1642
6.720000000e+06,-70.4279
7.093333333e+06,-70.5396
7.466666667e+06,-70.2148
7.840000000e+06,-64.5184
8.213333333e+06,-63.3953
8.586666667e+06,-64.2904
8.960000000e+06,-67.5372
9.333333333e+06,-64.7454
9.706666667e+06,-64.7662
1.008000000e+07,-69.6876
1.045333333e+07,-63.0075
1.082666667e+07,-69.4014
1.120000000e+07,-64.0826
1.157333333e+07,-71.5175
1.194666667e+07,-66.6557
1.232000000e+07,-65.5226
1.269333333e+07,-65.4747
1.306666667e+07,-65.0798
1.344000000e+07,-64.8814
1.381333333e+07,-63.6588
1.418666667e+07,-66.8808
1.456000000e+07,-66.5137
1.493333333e+07,-66.6638
1.530666667e+07,-63.7824
1.568000000e+07,-64.679
1.605333333e+07,-68.3896
1.642666667e+07,-60.5797
1.680000000e+07,-63.5067
1.717333333e+07,-64.7072
1.754666667e+07,-63.6808
1.792000000e+07,-67.4479
1.829333333e+07,-67.9142
1.866666667e+07,-64.3152
1.904000000e+07,-59.3478
1.941333333e+07,-61.5123
1.978666667e+07,-64.1328
2.016000000e+07,-62.9036
2.053333333e+07,-61.6815
2.090666667e+07,-63.3502
2.128000000e+07,-61.5285
2.165333333e+07,-60.82
2.202666667e+07,-61.1671
2.240000000e+07,-60.9933
2.277333333e+07,-62.5996
2.314666667e+07,-67.024
2.352000000e+07,-64.2362
2.389333333e+07,-68.7409
2.426666667e+07,-61.917
2.464000000e+07,-58.9464
2.501333333e+07,-51.7029
2.538666667e+07,-60.842
2.576000000e+07,-62.6362
2.613333333e+07,-62.145
2.650666667e+07,-62.8044
2.688000000e+07,-61.334
2.725333333e+07,-59.144
2.762666667e+07,-58.431
2.800000000e+07,-61.6886
2.837333333e+07,-66.7058
2.874666667e+07,-64.2255
2.912000000e+07,-64.3821
2.949333333e+07,-70.5478
2.986666667e+07,-60.2974
3.024000000e+07,-60.946
3.061333333e+07,-72.919
3.098666667e+07,-66.3573
3.136000000e+07,-63.975
3.173333333e+07,-64.1552
3.210666667e+07,-65.0243
3.248000000e+07,-60.1338
3.285333333e+07,-56.5886
3.322666667e+07,-64.5478
3.360000000e+07,-65.4107
3.397333333e+07,-68.5415
3.434666667e+07,-65.6649
3.472000000e+07,-62.8583
3.509333333e+07,-60.6735
3.546666667e+07,-56.6686
3.584000000e+07,-59.7412
3.621333333e+07,-60.7048
3.658666667e+07,-79.1109
3.696000000e+07,-71.2358
3.733333333e+07,-66.3174
3.770666667e+07,-71.5466
3.808000000e+07,-57.517
3.845333333e+07,-67.2875
3.882666667e+07,-67.0813
3.920000000e+07,-71.7553
3.957333333e+07,-68.6292
3.994666667e+07,-69.1206
4.032000000e+07,-68.0075
4.069333333e+07,-60.2788
4.106666667e+07,-60.2925
4.144000000e+07,-67.3881
4.181333333e+07,-77.0113
4.218666667e+07,-72.653
4.256000000e+07,-77.1271
4.293333333e+07,-68.6177
4.330666667e+07,-59.1691
4.368000000e+07,-59.5375
4.405333333e+07,-62.3613
4.442666667e+07,-68.4951
4.480000000e+07,-68.2179
4.517333333e+07,-69.1631
4.554666667e+07,-72.3075
4.592000000e+07,-65.0456
4.629333333e+07,-57.8424
4.666666667e+07,-58.6569
4.704000000e+07,-66.4286
4.741333333e+07,-70.0757
4.778666667e+07,-62.0892
4.816000000e+07,-61.789
4.853333333e+07,-68.0964
4.890666667e+07,-58.9691
4.928000000e+07,-58.0402
4.965333333e+07,-68.7883
5.002666667e+07,-69.276
5.040000000e+07,-83.4823
5.077333333e+07,-67.8868
5.114666667e+07,-68.9246
5.152000000e+07,-58.3355
5.189333333e+07,-54.3985
5.226666667e+07,-67.5135
5.264000000e+07,-72.7301
5.301333333e+07,-70.5595
5.338666667e+07,-68.4844
5.376000000e+07,-75.6546
5.413333333e+07,-64.9547
5.450666667e+07,-54.7048
5.488000000e+07,-58.5471
5.525333333e+07,-68.3655
5.562666667e+07,-65.3041
5.600000000e+07,-66.1008
5.637333333e+07,-69.4281
5.674666667e+07,-66.2564
5.712000000e+07,-52.5885
5.749333333e+07,-54.7139
5.786666667e+07,-65.6088
5.824000000e+07,-65.6821
5.861333333e+07,-67.308
5.898666667e+07,-68.7072
5.936000000e+07,-70.7573
5.973333333e+07,-36.1366
6.010666667e+07,-33.8592
6.048000000e+07,-52.3895
6.085333333e+07,-65.8635
6.122666667e+07,-65.6726
6.160000000e+07,-63.0267
6.197333333e+07,-60.3229
6.234666667e+07,-55.1977
6.272000000e+07,-53.5149
6.309333333e+07,-55.4327
6.346666667e+07,-57.8543
6.384000000e+07,-61.1391
6.421333333e+07,-60.1024
6.458666667e+07,-63.2854
6.496000000e+07,-63.9058
6.533333333e+07,-54.8275
6.570666667e+07,-56.6897
6.608000000e+07,-67.7547
6.645333333e+07,-68.5628
6.682666667e+07,-66.0413
6.720000000e+07,-61.1755
6.757333333e+07,-60.984
6.794666667e+07,-56.1961
6.832000000e+07,-53.8677
6.869333333e+07,-58.9844
6.906666667e+07,-63.1863
6.944000000e+07,-58.9328
6.981333333e+07,-62.144
7.018666667e+07,-62.783
7.056000000e+07,-55.9682
7.093333333e+07,-53.6133
7.130666667e+07,-61.7423
7.168000000e+07,-76.0118
7.205333333e+07,-68.3712
7.242666667e+07,-72.5152
7.280000000e+07,-61.9494
7.317333333e+07,-68.0806
7.354666667e+07,-55.3035
7.392000000e+07,-57.4403
7.429333333e+07,-62.2223
7.466666667e+07,-63.0797
7.504000000e+07,-64.7261
7.541333333e+07,-64.1072
7.578666667e+07,-62.1254
7.616000000e+07,-56.8256
7.653333333e+07,-57.3465
7.690666667e+07,-65.6452
7.728000000e+07,-68.6433
7.765333333e+07,-73.1744
7.802666667e+07,-70.975
7.840000000e+07,-67.8928
7.877333333e+07,-59.4721
7.914666667e+07,-55.075
7.952000000e+07,-58.2616
7.989333333e+07,-67.4596
8.026666667e+07,-69.9425
8.064000000e+07,-66.7092
8.101333333e+07,-71.5766
8.138666667e+07,-62.6277
8.176000000e+07,-54.5777
8.213333333e+07,-56.2532
8.250666667e+07,-65.5467
8.288000000e+07,-69.5985
8.325333333e+07,-72.9228
8.362666667e+07,-65.0227
8.400000000e+07,-52.8358
8.437333333e+07,-54.731
8.474666667e+07,-53.5784
8.512000000e+07,-69.3235
8.549333333e+07,-70.157
8.586666667e+07,-72.0498
8.624000000e+07,-71.928
8.661333333e+07,-67.3142
8.698666667e+07,-57.3234
8.736000000e+07,-53.6145
8.773333333e+07,-66.8774
8.810666667e+07,-67.106
8.848000000e+07,-73.6278
8.885333333e+07,-75.3402
8.922666667e+07,-79.0797
8.960000000e+07,-61.4975
8.997333333e+07,-52.1743
9.034666667e+07,-61.2274
9.072000000e+07,-71.0595
9.109333333e+07,-73.9744
9.146666667e+07,-74.1406
9.184000000e+07,-75.2719
9.221333333e+07,-67.8956
9.258666667e+07,-53.4974
9.296000000e+07,-55.1567
9.333333333e+07,-66.8302
9.370666667e+07,-66.4706
9.408000000e+07,-69.8083
9.445333333e+07,-67.226
9.482666667e+07,-73.7767
9.520000000e+07,-51.2189
9.557333333e+07,-50.9355
9.594666667e+07,-53.0371
9.632000000e+07,-54.8122
9.669333333e+07,-68.6095
9.706666667e+07,-69.2574
9.744000000e+07,-65.2496
9.781333333e+07,-56.9694
9.818666667e+07,-53.6111
9.856000000e+07,-61.6467
9.893333333e+07,-68.4252
9.930666667e+07,-71.2897
9.968000000e+07,-70.8946
1.000533333e+08,-69.1116
1.004266667e+08,-60.7224
1.008000000e+08,-53.4396
1.011733333e+08,-56.0286
1.015466667e+08,-64.4362
1.019200000e+08,-64.3876
1.022933333e+08,-64.5774
1.026666667e+08,-65.2341
1.030400000e+08,-69.5765
1.034133333e+08,-54.1317
1.037866667e+08,-54.4262
1.041600000e+08,-67.8118
1.045333333e+08,-66.8952
1.049066667e+08,-74.459
1.052800000e+08,-65.5534
1.056533333e+08,-62.3211
1.060266667e+08,-54.5627
1.064000000e+08,-52.2881
1.067733333e+08,-55.7594
1.071466667e+08,-66.893
1.075200000e+08,-67.351
1.078933333e+08,-51.499
1.082666667e+08,-54.7692
1.086400000e+08,-61.2748
1.090133333e+08,-54.5112
1.093866667e+08,-55.2172
1.097600000e+08,-68.0171
1.101333333e+08,-67.7936
1.105066667e+08,-67.6823
1.108800000e+08,-68.1047
1.112533333e+08,-64.29
1.116266667e+08,-53.1308
1.120000000e+08,-50.9372
1.123733333e+08,-62.4599
1.127466667e+08,-67.3538
1.131200000e+08,-67.3031
1.134933333e+08,-71.5948
1.138666667e+08,-73.6666
1.142400000e+08,-55.8701
1.146133333e+08,-51.7664
1.149866667e+08,-61.5797
1.153600000e+08,-69.9298
1.157333333e+08,-65.8028
1.161066667e+08,-66.1987
1.164800000e+08,-70.1676
1.168533333e+08,-63.2549
1.172266667e+08,-49.1883
1.176000000e+08,-53.1828
1.179733333e+08,-84.4303
1.183466667e+08,-77.0818
1.187200000e+08,-78.257
1.190933333e+08,-73.91
1.194666667e+08,-62.083
1.198400000e+08,-36.043
1.202133333e+08,-36.8423
1.205866667e+08,-67.9465
1.209600000e+08,-77.0686
1.213333333e+08,-80.6099
1.217066667e+08,-76.2388
1.220800000e+08,-76.1222
1.224533333e+08,-50.6613
1.228266667e+08,-49.1895
1.232000000e+08,-66.3431
1.235733333e+08,-65.6823
1.239466667e+08,-69.0895
1.243200000e+08,-72.2911
1.246933333e+08,-68.1738
1.250666667e+08,-58.0615
1.254400000e+08,-51.8565
1.258133333e+08,-59.9813
1.261866667e+08,-73.9086
1.265600000e+08,-72.769
1.269333333e+08,-64.9678
1.273066667e+08,-65.5557
1.276800000e+08,-66.2207
1.280533333e+08,-49.9983
1.284266667e+08,-52.6408
1.288000000e+08,-69.3111
1.291733333e+08,-66.0203
1.295466667e+08,-67.0031
1.299200000e+08,-64.6832
1.302933333e+08,-66.2945
1.306666667e+08,-51.9987
1.310400000e+08,-53.0007
1.314133333e+08,-61.7993
1.317866667e+08,-50.8891
1.321600000e+08,-49.8082
1.325333333e+08,-68.4029
1.329066667e+08,-66.1991
1.332800000e+08,-52.4604
1.336533333e+08,-51.4344
1.340266667e+08,-54.0626
1.344000000e+08,-64.8415
1.347733333e+08,-63.9095
1.351466667e+08,-65.3327
1.355200000e+08,-64.9443
1.358933333e+08,-60.037
1.362666667e+08,-53.6853
1.366400000e+08,-53.601
1.370133333e+08,-68.5698
1.373866667e+08,-68.6227
1.377600000e+08,-66.885
1.381333333e+08,-70.2222
1.385066667e+08,-61.4348
1.388800000e+08,-52.4028
1.392533333e+08,-50.5872
1.396266667e+08,-63.2797
1.400000000e+08,-62.7316
1.403733333e+08,-61.9953
1.407466667e+08,-65.42
1.411200000e+08,-67.5671
1.414933333e+08,-57.1171
1.418666667e+08,-52.2919
1.422400000e+08,-59.8219
1.426133333e+08,-71.8909
1.429866667e+08,-70.1897
1.433600000e+08,-73.9725
1.437333333e+08,-65.7931
1.441066667e+08,-54.01
1.444800000e+08,-48.3363
1.448533333e+08,-50.36
1.452266667e+08,-65.7994
1.456000000e+08,-67.8449
1.459733333e+08,-68.5885
1.463466667e+08,-68.4971
1.467200000e+08,-69.9818
1.470933333e+08,-51.3747
1.474666667e+08,-50.8457
1.478400000e+08,-71.7447
1.482133333e+08,-70.2239
1.485866667e+08,-74.4476
1.489600000e+08,-71.6327
1.493333333e+08,-70.5224
1.497066667e+08,-50.8472
1.500800000e+08,-47.9057
1.504533333e+08,-67.3562
1.508266667e+08,-69.4845
1.512000000e+08,-72.7568
1.515733333e+08,-70.2187
1.519466667e+08,-69.9044
1.523200000e+08,-58.1205
1.526933333e+08,-51.135
1.530666667e+08,-58.392
1.534400000e+08,-66.3065
1.538133333e+08,-71.3961
1.541866667e+08,-69.6218
1.545600000e+08,-71.496
1.549333333e+08,-61.3432
1.553066667e+08,-48.5232
1.556800000e+08,-51.163
1.560533333e+08,-50.5441
1.564266667e+08,-61.7653
1.568000000e+08,-62.2968
1.571733333e+08,-70.3278
1.575466667e+08,-66.1717
1.579200000e+08,-51.6155
1.582933333e+08,-51.6872
1.586666667e+08,-61.3775
1.590400000e+08,-70.3699
1.594133333e+08,-73.0579
1.597866667e+08,-67.7857
1.601600000e+08,-62.3123
1.605333333e+08,-51.8818
1.609066667e+08,-48.6499
1.612800000e+08,-51.6528
1.616533333e+08,-60.8165
1.620266667e+08,-60.9343
1.624000000e+08,-70.9679
1.627733333e+08,-68.5
1.631466667e+08,-59.3783
1.635200000e+08,-52.7057
1.638933333e+08,-53.4669
1.642666667e+08,-63.891
1.646400000e+08,-71.0572
1.650133333e+08,-70.6013
1.653866667e+08,-60.0067
1.657600000e+08,-60.8693
1.661333333e+08,-50.0094
1.665066667e+08,-48.4856
1.668800000e+08,-58.9372
1.672533333e+08,-61.7495
1.676266667e+08,-71.8949
1.680000000e+08,-63.045
1.683733333e+08,-64.3586
1.687466667e+08,-55.73
1.691200000e+08,-52.0671
1.694933333e+08,-55.9199
1.698666667e+08,-78.2622
1.702400000e+08,-72.7526
1.706133333e+08,-64.8275
1.709866667e+08,-65.4021
1.713600000e+08,-59.8302
1.717333333e+08,-47.9968
1.721066667e+08,-48.563
1.724800000e+08,-60.8286
1.728533333e+08,-69.1811
1.732266667e+08,-67.8354
1.736000000e+08,-67.6469
1.739733333e+08,-64.237
1.743466667e+08,-52.2657
1.747200000e+08,-50.8721
1.750933333e+08,-66.6737
1.754666667e+08,-66.1663
1.758400000e+08,-70.0874
1.762133333e+08,-68.7101
1.765866667e+08,-67.7296
1.769600000e+08,-52.593
1.773333333e+08,-46.7908
1.777066667e+08,-58.9361
1.780800000e+08,-67.4291
1.784533333e+08,-69.5452
1.788266667e+08,-68.5619
1.792000000e+08,-68.0615
1.795733333e+08,-53.6585
1.799466667e+08,-40.6566
1.803200000e+08,-45.8088
1.806933333e+08,-70.8153
1.810666667e+08,-69.6247
1.814400000e+08,-67.6414
1.818133333e+08,-69.9685
1.821866667e+08,-67.6537
1.825600000e+08,-47.1427
1.829333333e+08,-48.5859
1.833066667e+08,-64.0091
1.836800000e+08,-65.5545
1.840533333e+08,-68.761
1.844266667e+08,-66.2058
1.848000000e+08,-64.7412
1.851733333e+08,-54.0666
1.855466667e+08,-52.9599
1.859200000e+08,-65.1534
1.862933333e+08,-65.5532
1.866666667e+08,-68.1097
1.870400000e+08,-66.2602
1.874133333e+08,-68.0555
1.877866667e+08,-52.0628
1.881600000e+08,-47.2387
1.885333333e+08,-53.2189
1.889066667e+08,-60.2456
1.892800000e+08,-61.1071
1.896533333e+08,-63.2289
1.900266667e+08,-64.3103
1.904000000e+08,-65.463
1.907733333e+08,-52.6149
1.911466667e+08,-54.6293
1.915200000e+08,-68.5751
1.918933333e+08,-54.9811
1.922666667e+08,-53.3711
1.926400000e+08,-65.3016
1.930133333e+08,-60.9
1.933866667e+08,-48.4615
1.937600000e+08,-48.766
1.941333333e+08,-53.9736
1.945066667e+08,-61.5716
1.948800000e+08,-61.3686
1.952533333e+08,-66.416
1.956266667e+08,-66.9421
1.960000000e+08,-54.558
1.963733333e+08,-53.9319
1.967466667e+08,-58.0647
1.971200000e+08,-68.2066
1.974933333e+08,-72.2522
1.978666667e+08,-70.9837
1.982400000e+08,-65.6242
1.986133333e+08,-54.3034
1.989866667e+08,-48.5534
1.993600000e+08,-48.4558
1.997333333e+08,-60.9027
2.001066667e+08,-63.5872
2.004800000e+08,-66.9402
2.008533333e+08,-64.8801
2.012266667e+08,-65.8284
2.016000000e+08,-54.9707
2.019733333e+08,-52.4086
2.023466667e+08,-67.5523
2.027200000e+08,-67.0892
2.030933333e+08,-64.5381
2.034666667e+08,-64.8785
2.038400000e+08,-49.4468
2.042133333e+08,-48.4703
2.045866667e+08,-46.6823
2.049600000e+08,-54.788
2.053333333e+08,-62.859
2.057066667e+08,-66.2746
2.060800000e+08,-67.4046
2.064533333e+08,-70.3569
2.068266667e+08,-62.8883
2.072000000e+08,-51.7158
2.075733333e+08,-54.4169
2.079466667e+08,-71.8901
2.083200000e+08,-65.3716
2.086933333e+08,-66.2828
2.090666667e+08,-66.6829
2.094400000e+08,-70.2171
2.098133333e+08,-45.5834
2.101866667e+08,-45.5124
2.105600000e+08,-61.2397
2.109333333e+08,-61.4992
2.113066667e+08,-66.0646
2.116800000e+08,-63.6862
2.120533333e+08,-67.0648
2.124266667e+08,-53.8027
2.128000000e+08,-51.7719
2.131733333e+08,-66.8237
2.135466667e+08,-70.5387
2.139200000e+08,-75.9497
2.142933333e+08,-63.7071
2.146666667e+08,-64.0361
2.150400000e+08,-54.4794
2.154133333e+08,-46.0412
2.157866667e+08,-52.2425
2.161600000e+08,-58.1879
2.165333333e+08,-65.5689
2.169066667e+08,-66.8455
2.172800000e+08,-67.8384
2.176533333e+08,-62.3206
2.180266667e+08,-51.5187
2.184000000e+08,-54.0826
2.187733333e+08,-66.4316
2.191466667e+08,-65.0299
2.195200000e+08,-66.902
2.198933333e+08,-66.1081
2.202666667e+08,-63.5323
2.206400000e+08,-47.4941
2.210133333e+08,-47.5202
2.213866667e+08,-53.0014
2.217600000e+08,-61.3174
2.221333333e+08,-68.1675
2.225066667e+08,-68.0995
2.228800000e+08,-61.6908
2.232533333e+08,-55.2713
2.236266667e+08,-52.7856
2.240000000e+08,-53.891
2.243733333e+08,-65.3333
2.247466667e+08,-67.9383
2.251200000e+08,-65.9921
2.254933333e+08,-63.0393
2.258666667e+08,-56.0623
2.262400000e+08,-48.8517
2.266133333e+08,-48.2656
2.269866667e+08,-60.3213
2.273600000e+08,-63.6651
2.277333333e+08,-49.9825
2.281066667e+08,-48.4708
2.284800000e+08,-63.6432
2.288533333e+08,-54.5257
2.292266667e+08,-52.2947
2.296000000e+08,-62.8096
2.299733333e+08,-69.6899
2.303466667e+08,-67.8435
2.307200000e+08,-63.3101
2.310933333e+08,-63.6339
2.314666667e+08,-53.253
2.318400000e+08,-46.4859
2.322133333e+08,-51.4988
2.325866667e+08,-67.2371
2.329600000e+08,-71.1122
2.333333333e+08,-69.4088
2.337066667e+08,-67.9695
2.340800000e+08,-67.7094
2.344533333e+08,-53.1448
2.348266667e+08,-54.3608
2.352000000e+08,-69.962
2.355733333e+08,-69.1327
2.359466667e+08,-67.6745
2.363200000e+08,-73.2125
2.366933333e+08,-70.1441
2.370666667e+08,-47.1301
2.374400000e+08,-45.798
2.378133333e+08,-68.9155
2.381866667e+08,-71.0316
2.385600000e+08,-70.5072
2.389333333e+08,-71.7157
2.393066667e+08,-72.4475
2.396800000e+08,-54.924
2.400533333e+08,-52.7202
2.404266667e+08,-55.793
2.408000000e+08,-75.533
2.411733333e+08,-69.0633
2.415466667e+08,-70.1838
2.419200000e+08,-74.2055
2.422933333e+08,-60.2798
2.426666667e+08,-46.7363
2.430400000e+08,-52.4789
2.434133333e+08,-68.8282
2.437866667e+08,-71.8085
2.441600000e+08,-71.7318
2.445333333e+08,-68.7845
2.449066667e+08,-73.1878
2.452800000e+08,-52.2231
2.456533333e+08,-53.7876
2.460266667e+08,-66.6202
2.464000000e+08,-68.1008
2.467733333e+08,-67.3463
2.471466667e+08,-65.2602
2.475200000e+08,-63.8544
2.478933333e+08,-48.1276
2.482666667e+08,-47.4489
2.486400000e+08,-57.0522
2.490133333e+08,-64.3637
2.493866667e+08,-64.8542
2.497600000e+08,-71.0698
2.501333333e+08,-70.6981
2.505066667e+08,-59.0337
2.508800000e+08,-53.9624
2.512533333e+08,-57.5205
2.516266667e+08,-56.5519
2.520000000e+08,-47.9313
2.523733333e+08,-57.3653
2.527466667e+08,-65.8961
2.531200000e+08,-60.0181
2.534933333e+08,-49.1879
2.538666667e+08,-50.2611
2.542400000e+08,-61.9763
2.546133333e+08,-63.0826
2.549866667e+08,-64.7661
2.553600000e+08,-66.4255
2.557333333e+08,-67.2809
2.561066667e+08,-56.4311
2.564800000e+08,-55.0468
2.568533333e+08,-62.4049
2.572266667e+08,-66.3403
2.576000000e+08,-69.4134
2.579733333e+08,-66.6629
2.583466667e+08,-65.1918
2.587200000e+08,-52.8232
2.590933333e+08,-48.4058
2.594666667e+08,-50.8689
2.598400000e+08,-64.7402
2.602133333e+08,-67.5572
2.605866667e+08,-68.9656
2.609600000e+08,-71.1959
2.613333333e+08,-64.2116
2.617066667e+08,-54.9602
2.620800000e+08,-55.2175
2.624533333e+08,-67.6222
2.628266667e+08,-67.969
2.632000000e+08,-65.6442
2.635733333e+08,-66.3246
2.639466667e+08,-54.4688
2.643200000e+08,-49.5558
2.646933333e+08,-47.3216
2.650666667e+08,-67.739
2.654400000e+08,-67.154
2.658133333e+08,-73.3585
2.661866667e+08,-73.6604
2.665600000e+08,-75.5432
2.669333333e+08,-57.9121
2.673066667e+08,-52.5056
2.676800000e+08,-59.6653
2.680533333e+08,-67.8131
2.684266667e+08,-67.2929
2.688000000e+08,-72.0843
2.691733333e+08,-70.6382
2.695466667e+08,-61.8503
2.699200000e+08,-45.6261
2.702933333e+08,-49.0329
2.706666667e+08,-67.501
2.710400000e+08,-71.9978
2.714133333e+08,-74.0346
2.717866667e+08,-72.0948
2.721600000e+08,-75.624
2.725333333e+08,-52.4816
2.729066667e+08,-52.7059
2.732800000e+08,-71.0408
2.736533333e+08,-72.2893
2.740266667e+08,-69.7955
2.744000000e+08,-70.6154
2.747733333e+08,-63.6558
2.751466667e+08,-49.8041
2.755200000e+08,-47.764
2.758933333e+08,-47.7036
2.762666667e+08,-50.2596
2.766400000e+08,-67.6441
2.770133333e+08,-69.4947
2.773866667e+08,-72.3489
2.777600000e+08,-62.0899
2.781333333e+08,-53.5812
2.785066667e+08,-59.4397
2.788800000e+08,-67.2776
2.792533333e+08,-68.4211
2.796266667e+08,-68.6097
2.800000000e+08,-67.248

